SpectraSuite Data File
++++++++++++++++++++++++++++++++++++
Date: Tue Jun 09 14:13:23 CEST 2015
User: jiasu
Dark Spectrum Present: No
Reference Spectrum Present: No
Number of Sampled Component Spectra: 1
Spectrometers: USB2+F02403
Integration Time (usec): 30000000 (USB2+F02403)
Spectra Averaged: 1 (USB2+F02403)
Boxcar Smoothing: 0 (USB2+F02403)
Correct for Electrical Dark: No (USB2+F02403)
Strobe/Lamp Enabled: No (USB2+F02403)
Correct for Detector Non-linearity: No (USB2+F02403)
Correct for Stray Light: No (USB2+F02403)
Number of Pixels in Processed Spectrum: 2048
>>>>>Begin Processed Spectral Data<<<<<
177.51	685.78
177.90	685.78
178.28	685.78
178.67	561.73
179.05	594.50
179.44	8840.20
179.82	3386.76
180.20	14853.04
180.59	4498.51
180.97	4540.64
181.36	6581.59
181.74	6396.68
182.12	4411.91
182.51	6642.44
182.89	5320.04
183.28	6326.47
183.66	4760.65
184.04	6588.61
184.43	4868.31
184.81	4098.28
185.19	4315.95
185.58	8028.04
185.96	7817.39
186.35	3281.43
186.73	6553.50
187.11	9146.81
187.50	8140.38
187.88	6115.82
188.26	6073.69
188.65	5046.20
189.03	3517.83
189.41	4271.48
189.80	12524.21
190.18	5149.18
190.56	5853.68
190.95	5802.19
191.33	5750.70
191.71	7300.13
192.10	6441.15
192.48	6778.19
192.86	3815.07
193.25	10274.95
193.63	3075.46
194.01	7110.55
194.40	4056.15
194.78	7595.04
195.16	3267.39
195.54	7028.63
195.93	3297.81
196.31	5132.79
196.69	3873.59
197.08	5940.28
197.46	5741.33
197.84	4589.79
198.22	10677.52
198.61	4014.02
198.99	7227.57
199.37	3468.67
199.75	4250.41
200.14	5022.79
200.52	5977.73
200.90	4475.10
201.28	4222.33
201.67	8124.00
202.05	4905.76
202.43	6665.85
202.81	5727.29
203.20	2569.91
203.58	6518.39
203.96	5142.16
204.34	7854.84
204.72	5303.65
205.11	4650.64
205.49	5689.84
205.87	6380.30
206.25	6513.71
206.63	4210.62
207.02	4025.72
207.40	5600.90
207.78	4741.93
208.16	6340.51
208.54	4554.68
208.93	3389.10
209.31	9774.08
209.69	5511.96
210.07	3016.95
210.45	4884.70
210.83	6148.59
211.22	5027.47
211.60	5427.70
211.98	2956.10
212.36	3052.06
212.74	3789.33
213.12	3695.71
213.50	3201.85
213.89	4660.01
214.27	7066.08
214.65	5907.51
215.03	6911.60
215.41	5472.17
215.79	3562.30
216.17	2303.09
216.55	6349.87
216.94	6803.94
217.32	3992.95
217.70	5444.09
218.08	4058.49
218.46	3620.81
218.84	3045.04
219.22	6768.83
219.60	3456.97
219.98	9659.39
220.36	5673.46
220.74	5631.33
221.12	7176.08
221.51	3372.71
221.89	3714.43
222.27	7637.17
222.65	4159.13
223.03	4042.11
223.41	2511.39
223.79	6291.36
224.17	5053.22
224.55	4341.69
224.93	4266.80
225.31	6129.86
225.69	4617.88
226.07	4748.95
226.45	3063.76
226.83	6125.18
227.21	2546.50
227.59	4779.37
227.97	5563.45
228.35	5572.82
228.73	7990.59
229.11	4435.32
229.49	8308.90
229.87	2953.76
230.25	5008.75
230.63	4014.02
231.01	3272.07
231.39	7262.68
231.77	4493.83
232.15	3370.37
232.53	6076.03
232.91	8615.51
233.29	5841.98
233.67	4744.27
234.05	3932.10
234.43	7700.36
234.81	7878.24
235.19	2782.90
235.57	3915.72
235.95	8753.60
236.33	4727.88
236.71	4407.23
237.09	4360.42
237.47	3508.46
237.84	6209.44
238.22	9364.48
238.60	4479.79
238.98	5776.44
239.36	4273.82
239.74	6150.93
240.12	4844.91
240.50	4273.82
240.88	9327.03
241.26	5736.65
241.64	4858.95
242.01	6298.38
242.39	6225.82
242.77	3192.49
243.15	2970.14
243.53	3473.36
243.91	2663.53
244.29	4304.25
244.67	3255.69
245.04	4676.39
245.42	4273.82
245.80	4386.16
246.18	4475.10
246.56	2939.71
246.94	4241.05
247.32	5645.37
247.69	4524.26
248.07	6590.95
248.45	5720.27
248.83	3070.78
249.21	3302.50
249.59	5554.09
249.96	8645.94
250.34	4196.58
250.72	9448.74
251.10	6892.88
251.48	3531.87
251.86	5570.48
252.23	3997.64
252.61	4725.54
252.99	5991.77
253.37	3148.02
253.74	3337.60
254.12	3995.29
254.50	5556.43
254.88	4961.94
255.26	6069.01
255.63	3859.54
256.01	10265.59
256.39	3723.79
256.77	3805.71
257.14	5528.35
257.52	6534.78
257.90	2839.07
258.28	4149.77
258.65	2920.99
259.03	3110.57
259.41	2803.96
259.79	3522.51
260.16	4152.11
260.54	5575.16
260.92	4264.46
261.30	7033.31
261.67	3178.45
262.05	8990.00
262.43	4035.08
262.80	4870.65
263.18	4978.32
263.56	5210.03
263.94	3665.28
264.31	5210.03
264.69	5671.12
265.07	5039.17
265.44	3049.72
265.82	5987.09
266.20	3169.09
266.57	6204.76
266.95	5324.72
267.33	5689.84
267.70	10981.79
268.08	7068.42
268.46	5727.29
268.83	4674.05
269.21	4791.08
269.59	4086.58
269.96	6279.66
270.34	6548.82
270.71	9921.53
271.09	3892.31
271.47	4365.10
271.84	4514.89
272.22	7372.69
272.60	5895.81
272.97	2853.11
273.35	2698.64
273.72	8940.85
274.10	3695.71
274.48	6069.01
274.85	4234.03
275.23	5713.25
275.60	4521.92
275.98	3634.85
276.36	4889.38
276.73	4727.88
277.11	6413.07
277.48	4730.22
277.86	3255.69
278.24	3183.13
278.61	3035.67
278.99	3138.66
279.36	6867.13
279.74	7344.60
280.11	3363.35
280.49	6459.88
280.86	6193.06
281.24	3571.66
281.61	4809.80
281.99	9748.33
282.37	7325.88
282.74	5371.53
283.12	4339.35
283.49	3698.05
283.87	9909.83
284.24	4746.61
284.62	5139.82
284.99	4638.94
285.37	4917.47
285.74	5160.88
286.12	3911.04
286.49	2670.55
286.87	2417.77
287.24	5067.26
287.62	3410.16
287.99	7377.37
288.37	7037.99
288.74	5425.36
289.12	6490.31
289.49	4269.14
289.86	5427.70
290.24	4329.99
290.61	4695.11
290.99	4351.06
291.36	2743.11
291.74	7646.53
292.11	3103.55
292.49	3108.23
292.86	5928.58
293.23	3918.06
293.61	4278.50
293.98	5694.52
294.36	4973.64
294.73	3702.73
295.11	2745.45
295.48	3906.35
295.85	6494.99
296.23	4987.68
296.60	3974.23
296.98	3187.81
297.35	4051.47
297.72	3005.25
298.10	3129.30
298.47	2981.84
298.85	3812.73
299.22	11705.02
299.59	2621.40
299.97	4472.76
300.34	3847.84
300.71	9177.24
301.09	4400.21
301.46	5343.44
301.83	4819.16
302.21	3808.05
302.58	5811.55
302.95	8262.09
303.33	5916.87
303.70	4140.41
304.07	5509.62
304.45	7269.70
304.82	6850.75
305.19	4711.50
305.57	2612.04
305.94	9055.53
306.31	6473.92
306.69	4166.15
307.06	4730.22
307.43	2700.98
307.81	5289.61
308.18	5788.14
308.55	9048.51
308.92	3899.33
309.30	5998.79
309.67	5778.78
310.04	5078.96
310.42	4713.84
310.79	5841.98
311.16	4009.34
311.53	4486.81
311.91	4910.44
312.28	4882.36
312.65	3194.83
313.02	6221.14
313.40	6270.30
313.77	2581.61
314.14	7695.68
314.51	4858.95
314.89	8985.32
315.26	4877.68
315.63	3588.04
316.00	5345.78
316.37	3999.98
316.75	4435.32
317.12	3578.68
317.49	3868.91
317.86	9652.37
318.23	6445.84
318.61	5296.63
318.98	3187.81
319.35	4929.17
319.72	7588.02
320.09	6621.38
320.47	5048.54
320.84	4531.28
321.21	5909.85
321.58	4746.61
321.95	5928.58
322.32	3368.03
322.70	4400.21
323.07	5053.22
323.44	5879.43
323.81	4741.93
324.18	5661.76
324.55	9050.85
324.92	5657.07
325.30	2370.96
325.67	6602.65
326.04	5313.02
326.41	4074.87
326.78	3368.03
327.15	5673.46
327.52	10073.67
327.89	4124.02
328.27	4971.30
328.64	7625.47
329.01	4692.77
329.38	7267.36
329.75	7950.80
330.12	3122.27
330.49	4643.62
330.86	4601.49
331.23	7681.64
331.60	5408.98
331.97	6427.11
332.34	3822.09
332.71	4884.70
333.09	3920.40
333.46	4086.58
333.83	5561.11
334.20	4451.70
334.57	5280.25
334.94	4631.92
335.31	3073.12
335.68	5841.98
336.05	4521.92
336.42	3400.80
336.79	6457.54
337.16	4723.20
337.53	3798.69
337.90	2740.77
338.27	3293.13
338.64	2867.16
339.01	4636.60
339.38	4912.78
339.75	2684.59
340.12	2993.55
340.49	3934.44
340.86	8145.06
341.23	4702.14
341.60	3976.57
341.97	4557.02
342.34	3033.33
342.71	5481.53
343.08	6377.96
343.45	4301.90
343.82	5270.89
344.19	5399.62
344.55	4734.90
344.92	6761.81
345.29	4594.47
345.66	4762.99
346.03	4327.65
346.40	5371.53
346.77	2736.09
347.14	4418.93
347.51	5762.40
347.88	5493.24
348.25	5572.82
348.62	4444.68
348.99	4432.97
349.35	4243.39
349.72	3964.87
350.09	5324.72
350.46	5327.06
350.83	3077.80
351.20	5795.17
351.57	4346.37
351.94	4014.02
352.31	3410.16
352.67	5439.40
353.04	3904.01
353.41	2925.67
353.78	5266.21
354.15	6661.16
354.52	3751.88
354.89	4461.06
355.25	3084.83
355.62	4484.47
355.99	5579.84
356.36	2970.14
356.73	3894.65
357.10	3808.05
357.46	2260.96
357.83	2209.47
358.20	3211.22
358.57	7470.99
358.94	4465.74
359.30	4257.43
359.67	3328.24
360.04	2757.15
360.41	5259.18
360.78	3756.56
361.14	5621.97
361.51	4959.60
361.88	6736.06
362.25	5067.26
362.61	3709.75
362.98	4109.98
363.35	3330.58
363.72	7262.68
364.08	2668.21
364.45	4947.89
364.82	3136.32
365.19	2420.11
365.55	4414.25
365.92	4252.75
366.29	4098.28
366.66	3426.54
367.02	3815.07
367.39	2703.32
367.76	3295.47
368.13	3538.89
368.49	2635.44
368.86	2537.14
369.23	8367.42
369.59	3002.91
369.96	3754.22
370.33	3211.22
370.69	5142.16
371.06	3239.30
371.43	3042.70
371.79	3377.39
372.16	2733.75
372.53	4521.92
372.89	6626.06
373.26	4889.38
373.63	4545.32
373.99	4161.47
374.36	3588.04
374.73	5802.19
375.09	4383.82
375.46	6029.22
375.83	3791.67
376.19	4643.62
376.56	4262.12
376.93	14637.71
377.29	2579.27
377.66	6576.91
378.02	4526.60
378.39	6902.24
378.76	3454.63
379.12	3536.55
379.49	4322.97
379.85	3740.18
380.22	3756.56
380.59	7992.93
380.95	4430.63
381.32	3946.14
381.68	3045.04
382.05	5114.07
382.42	4819.16
382.78	5399.62
383.15	3948.48
383.51	3199.51
383.88	4241.05
384.24	3531.87
384.61	9369.16
384.97	2930.35
385.34	2654.17
385.70	11101.16
386.07	5448.77
386.44	2813.32
386.80	2382.67
387.17	7056.72
387.53	5137.48
387.90	4545.32
388.26	4826.18
388.63	6855.43
388.99	4297.22
389.36	3899.33
389.72	2602.68
390.09	4814.48
390.45	3442.93
390.82	5390.25
391.18	3119.93
391.55	6832.02
391.91	4168.49
392.28	4702.14
392.64	3637.19
393.00	3379.73
393.37	4079.55
393.73	4997.04
394.10	6150.93
394.46	4828.53
394.83	4655.33
395.19	5366.85
395.56	8477.42
395.92	4369.78
396.28	5699.20
396.65	7578.65
397.01	5100.03
397.38	5064.92
397.74	6347.53
398.11	5584.52
398.47	4449.36
398.83	5837.30
399.20	5315.36
399.56	5579.84
399.93	4873.00
400.29	3585.70
400.65	3384.41
401.02	7045.01
401.38	4028.06
401.74	3751.88
402.11	3222.92
402.47	10057.28
402.84	5078.96
403.20	6595.63
403.56	6946.71
403.93	4837.89
404.29	5233.44
404.65	9240.44
405.02	4390.84
405.38	5338.76
405.74	4947.89
406.11	3187.81
406.47	4383.82
406.83	2768.85
407.20	3698.05
407.56	3920.40
407.92	5256.84
408.29	3070.78
408.65	3527.19
409.01	2855.45
409.37	6558.18
409.74	3417.18
410.10	5989.43
410.46	3960.19
410.83	7873.56
411.19	4077.21
411.55	3503.78
411.91	5909.85
412.28	7648.87
412.64	8168.47
413.00	4709.16
413.36	3899.33
413.73	7948.46
414.09	4793.42
414.45	3485.06
414.81	3934.44
415.18	4674.05
415.54	3201.85
415.90	2782.90
416.26	3833.80
416.63	9848.97
416.99	4283.18
417.35	4624.90
417.71	5004.07
418.07	9064.89
418.44	9032.13
418.80	3522.51
419.16	4014.02
419.52	4964.28
419.88	6263.27
420.25	5170.24
420.61	3941.46
420.97	3522.51
421.33	4631.92
421.69	3157.38
422.05	3976.57
422.42	7241.62
422.78	4758.31
423.14	5834.96
423.50	4009.34
423.86	3007.59
424.22	4432.97
424.58	3316.54
424.95	4908.10
425.31	5951.98
425.67	5200.67
426.03	2651.83
426.39	5767.08
426.75	2621.40
427.11	5631.33
427.47	4692.77
427.83	3143.34
428.20	5458.13
428.56	5235.78
428.92	3836.14
429.28	7344.60
429.64	7864.20
430.00	4730.22
430.36	7030.97
430.72	3714.43
431.08	3889.97
431.44	2612.04
431.80	2843.75
432.16	2679.91
432.52	3363.35
432.88	6251.57
433.25	10719.65
433.61	6001.13
433.97	3288.45
434.33	4657.67
434.69	8336.99
435.05	3159.72
435.41	5757.72
435.77	3213.56
436.13	2087.76
436.49	2890.56
436.85	4472.76
437.21	5547.07
437.57	3831.46
437.93	3122.27
438.29	3585.70
438.65	4538.30
439.01	6106.46
439.37	4571.07
439.73	4390.84
440.09	3955.51
440.45	5308.34
440.81	3974.23
441.17	5008.75
441.53	5949.64
441.88	3719.11
442.24	3033.33
442.60	2942.05
442.96	4521.92
443.32	3499.10
443.68	4751.29
444.04	3873.59
444.40	4685.75
444.76	6157.95
445.12	7723.77
445.48	5809.21
445.84	6045.60
446.20	4088.92
446.55	2569.91
446.91	5874.74
447.27	5666.44
447.63	5479.19
447.99	4978.32
448.35	3129.30
448.71	2668.21
449.07	3747.20
449.43	2853.11
449.78	2785.24
450.14	5460.47
450.50	8365.07
450.86	4362.76
451.22	5252.16
451.58	4697.46
451.94	2862.48
452.29	7180.76
452.65	5165.56
453.01	7136.29
453.37	3199.51
453.73	2572.25
454.09	3204.19
454.44	3251.00
454.80	2785.24
455.16	4093.60
455.52	5076.62
455.88	5755.38
456.23	2773.53
456.59	4875.34
456.95	4821.50
457.31	4784.06
457.67	3480.38
458.02	5343.44
458.38	2719.70
458.74	7674.62
459.10	3138.66
459.45	4404.89
459.81	3412.50
460.17	29998.65
460.53	3225.26
460.88	4264.46
461.24	5296.63
461.60	4875.34
461.96	4042.11
462.31	6539.46
462.67	3777.62
463.03	6609.67
463.39	4486.81
463.74	4311.27
464.10	2754.81
464.46	3627.83
464.81	3201.85
465.17	6558.18
465.53	4547.66
465.88	3077.80
466.24	3061.42
466.60	5448.77
466.95	4341.69
467.31	3988.27
467.67	3094.19
468.03	9385.55
468.38	5923.90
468.74	5645.37
469.09	3662.94
469.45	5919.21
469.81	4992.36
470.16	5455.79
470.52	6553.50
470.88	5998.79
471.23	4655.33
471.59	3665.28
471.95	8351.03
472.30	4891.72
472.66	7527.16
473.01	8615.51
473.37	7751.85
473.73	4425.95
474.08	3789.33
474.44	4564.04
474.79	4210.62
475.15	4564.04
475.51	2850.77
475.86	2925.67
476.22	6389.66
476.57	6143.91
476.93	3419.52
477.29	4922.15
477.64	4975.98
478.00	7082.46
478.35	2977.16
478.71	4542.98
479.06	3908.69
479.42	6806.28
479.77	8163.79
480.13	3463.99
480.48	5357.49
480.84	4301.90
481.19	6171.99
481.55	5495.58
481.91	5851.34
482.26	5006.41
482.62	4114.66
482.97	4617.88
483.33	4353.40
483.68	5460.47
484.04	7531.84
484.39	5383.23
484.74	4280.84
485.10	3948.48
485.45	6869.47
485.81	9067.24
486.16	7911.01
486.52	5146.84
486.87	5448.77
487.23	5315.36
487.58	6169.65
487.94	4416.59
488.29	8334.65
488.65	6658.82
489.00	10249.21
489.35	6408.39
489.71	8760.63
490.06	8547.64
490.42	7681.64
490.77	8442.31
491.12	9476.83
491.48	11330.53
491.83	11281.38
492.19	9701.52
492.54	9511.94
492.89	11480.33
493.25	11747.15
493.60	14363.87
493.96	15524.77
494.31	20720.76
494.66	21139.72
495.02	22637.66
495.37	22424.67
495.72	24458.60
496.08	27910.89
496.43	26368.48
496.79	31189.98
497.14	28044.30
497.49	29488.41
497.85	31302.32
498.20	30955.93
498.55	33357.32
498.91	34225.65
499.26	35632.32
499.61	37769.22
499.96	35133.78
500.32	37256.65
500.67	39381.85
501.02	34127.35
501.38	33563.28
501.73	43248.42
502.08	35463.80
502.44	35878.07
502.79	35225.06
503.14	34899.73
503.49	33432.21
503.85	36334.48
504.20	33624.14
504.55	34745.25
504.90	42174.11
505.26	37097.49
505.61	35222.72
505.96	35599.55
506.31	35892.12
506.67	38197.54
507.02	34895.05
507.37	34061.82
507.72	36322.77
508.08	43791.42
508.43	35765.73
508.78	35999.78
509.13	40783.83
509.48	35885.09
509.84	36376.61
510.19	38033.71
510.54	36959.40
510.89	37085.79
511.24	35543.38
511.59	40865.75
511.95	38160.09
512.30	35857.01
512.65	39789.11
513.00	35777.43
513.35	37787.95
513.70	37703.69
514.06	39676.76
514.41	37600.71
514.76	36533.42
515.11	36163.62
515.46	35079.95
515.81	37937.74
516.16	39784.43
516.52	39969.33
516.87	35070.59
517.22	34822.49
517.57	39590.16
517.92	37322.18
518.27	35782.11
518.62	39761.02
518.97	36484.27
519.32	36882.16
519.67	38054.77
520.03	36170.64
520.38	38054.77
520.73	36753.43
521.08	38298.19
521.43	39578.46
521.78	39030.77
522.13	35395.92
522.48	36931.31
522.83	36966.42
523.18	35674.45
523.53	38452.66
523.88	35761.05
524.23	39236.74
524.58	34995.69
524.93	36371.92
525.28	39241.42
525.63	36491.29
525.98	39948.26
526.33	39405.26
526.68	36273.62
527.03	37837.10
527.38	35108.04
527.73	32746.44
528.08	35721.26
528.43	34761.64
528.78	34480.77
529.13	35225.06
529.48	35796.15
529.83	34129.69
530.18	32971.13
530.53	35061.22
530.88	34352.04
531.23	32617.71
531.58	33638.18
531.93	35290.60
532.28	34316.93
532.63	37102.17
532.98	30836.56
533.33	35845.30
533.68	31152.53
534.02	30623.57
534.37	30569.74
534.72	30506.54
535.07	33738.82
535.42	32140.24
535.77	30930.18
536.12	30052.48
536.47	30429.30
536.82	32121.51
537.17	32971.13
537.51	29228.61
537.86	28858.81
538.21	29226.27
538.56	33930.75
538.91	28641.14
539.26	28180.05
539.61	31756.39
539.95	32704.31
540.30	27363.20
540.65	29085.84
541.00	28144.94
541.35	32692.60
541.70	31800.86
542.04	29163.08
542.39	31718.94
542.74	27435.76
543.09	26356.77
543.44	29156.05
543.78	27613.64
544.13	27040.21
544.48	30590.80
544.83	27953.02
545.18	26309.96
545.52	29123.29
545.87	28931.36
546.22	25069.48
546.57	26347.41
546.91	25490.77
547.26	25509.50
547.61	28109.83
547.96	27290.65
548.30	24659.88
548.65	26965.31
549.00	25598.44
549.35	26047.82
549.69	26125.06
550.04	25127.99
550.39	23836.02
550.74	23754.10
551.08	27307.03
551.43	26012.71
551.78	23192.37
552.12	26799.13
552.47	26328.69
552.82	26115.70
553.17	24755.85
553.51	24470.30
553.86	26197.62
554.21	24423.49
554.55	23791.55
554.90	24556.90
555.25	24765.21
555.59	26214.00
555.94	22284.24
556.29	22871.72
556.63	21654.64
556.98	25511.84
557.32	24683.29
557.67	21759.96
558.02	21596.12
558.36	24442.21
558.71	20400.11
559.06	22370.84
559.40	21865.28
559.75	20091.16
560.09	21008.65
560.44	20957.16
560.79	21062.48
561.13	20950.14
561.48	21336.32
561.82	22127.42
562.17	19307.08
562.52	20306.49
562.86	20814.38
563.21	21319.94
563.55	19609.01
563.90	20563.95
564.24	21469.73
564.59	20372.02
564.94	22359.14
565.28	21891.03
565.63	21696.77
565.97	19620.71
566.32	21097.59
566.66	22202.32
567.01	18223.41
567.35	19894.55
567.70	20308.83
568.04	18267.88
568.39	17565.72
568.73	21364.41
569.08	19456.87
569.42	18623.64
569.77	19475.60
570.11	21401.86
570.46	18764.07
570.80	18260.86
571.15	22499.57
571.49	17460.40
571.84	17006.33
572.18	23042.57
572.52	22452.76
572.87	16362.69
573.21	19396.02
573.56	17509.55
573.90	16468.01
574.25	18525.34
574.59	15573.92
574.94	22265.52
575.28	20428.20
575.62	16627.17
575.97	15950.75
576.31	15929.69
576.66	15927.35
577.00	16105.23
577.34	16755.90
577.69	14801.55
578.03	18127.45
578.38	15431.15
578.72	15843.09
579.06	16964.20
579.41	15637.12
579.75	15765.85
580.09	18958.34
580.44	16631.85
580.78	17020.38
581.12	14293.65
581.47	14525.36
581.81	13825.54
582.16	13378.50
582.50	16137.99
582.84	13898.10
583.19	15967.13
583.53	18647.05
583.87	14899.85
584.21	14604.94
584.56	12753.58
584.90	13570.43
585.24	16861.22
585.59	13294.24
585.93	14656.43
586.27	17668.70
586.62	12013.97
586.96	15772.87
587.30	18916.21
587.64	12035.03
587.99	13692.13
588.33	12849.54
588.67	15941.39
589.01	14504.30
589.36	12784.01
589.70	16996.97
590.04	12278.45
590.38	11992.90
590.73	14043.21
591.07	11440.54
591.41	11859.49
591.75	15461.58
592.09	12507.82
592.44	12964.23
592.78	12894.01
593.12	16243.32
593.46	13657.03
593.80	11707.36
594.15	10586.24
594.49	13731.92
594.83	16189.49
595.17	12063.12
595.51	9987.07
595.85	14853.04
596.20	11705.02
596.54	10731.36
596.88	9628.96
597.22	10345.17
597.56	16250.34
597.90	10600.29
598.25	13390.20
598.59	10003.45
598.93	12343.99
599.27	12081.85
599.61	14700.90
599.95	12243.34
600.29	14298.33
600.63	13366.80
600.97	10143.88
601.32	11744.81
601.66	10047.92
602.00	9312.99
602.34	9982.38
602.68	13149.13
603.02	10970.09
603.36	10333.47
603.70	8746.58
604.04	11489.69
604.38	9708.54
604.72	16205.87
605.06	11236.91
605.40	12308.88
605.74	12189.51
606.08	11033.29
606.43	9916.85
606.77	10511.35
607.11	11138.61
607.45	8823.82
607.79	11253.30
608.13	10230.48
608.47	10993.50
608.81	10148.56
609.15	10190.69
609.49	11506.07
609.83	13132.75
610.17	12236.32
610.51	10200.05
610.85	13860.65
611.19	8608.49
611.52	11199.46
611.86	9102.34
612.20	9776.42
612.54	10581.56
612.88	7644.19
613.22	11793.96
613.56	8491.46
613.90	10010.47
614.24	12905.71
614.58	10469.22
614.92	9231.07
615.26	7330.56
615.60	13853.63
615.94	9612.58
616.28	10738.38
616.61	9242.78
616.95	7831.43
617.29	10424.75
617.63	11531.82
617.97	10551.14
618.31	7562.27
618.65	8879.99
618.99	11597.35
619.33	8994.68
619.66	10368.57
620.00	10569.86
620.34	8030.38
620.68	10312.40
621.02	10469.22
621.36	8695.09
621.69	10581.56
622.03	7939.10
622.37	7419.50
622.71	8840.20
623.05	10321.76
623.39	10869.45
623.72	9820.89
624.06	7592.70
624.40	10607.31
624.74	11861.84
625.08	10099.41
625.41	7637.17
625.75	7761.22
626.09	7236.94
626.43	8463.38
626.77	9404.27
627.10	8030.38
627.44	12203.55
627.78	7258.00
628.12	10534.75
628.45	8458.70
628.79	6480.94
629.13	7030.97
629.47	9895.78
629.80	9287.25
630.14	9144.47
630.48	13490.85
630.81	7353.96
631.15	8833.18
631.49	7894.63
631.83	7199.49
632.16	5111.73
632.50	6076.03
632.84	6808.62
633.17	8416.57
633.51	5680.48
633.85	8578.06
634.18	12891.67
634.52	13415.95
634.86	6183.70
635.19	6492.65
635.53	10464.54
635.87	8884.67
636.20	5561.11
636.54	5696.86
636.88	5088.32
637.21	7815.05
637.55	7531.84
637.89	5511.96
638.22	9481.51
638.56	8662.32
638.89	9596.20
639.23	7405.46
639.57	6167.31
639.90	5170.24
640.24	5034.49
640.57	8400.18
640.91	7045.01
641.25	6347.53
641.58	5654.73
641.92	5671.12
642.25	4858.95
642.59	6576.91
642.92	6731.38
643.26	5970.71
643.60	6995.86
643.93	8854.25
644.27	5242.80
644.60	7023.95
644.94	6155.61
645.27	6478.60
645.61	4301.90
645.94	9275.54
646.28	7606.74
646.61	4252.75
646.95	5193.65
647.28	7588.02
647.62	7728.45
647.95	7913.35
648.29	8821.48
648.62	7969.52
648.96	7606.74
649.29	4461.06
649.63	5977.73
649.96	6679.89
650.30	5666.44
650.63	7452.27
650.97	11311.81
651.30	5474.51
651.63	8493.80
651.97	65371.16
652.30	9916.85
652.64	4219.99
652.97	10122.82
653.31	4765.33
653.64	4255.09
653.97	6155.61
654.31	11679.27
654.64	6382.64
654.98	3899.33
655.31	4205.94
655.64	7501.42
655.98	5130.45
656.31	4241.05
656.65	9455.76
656.98	7030.97
657.31	7234.60
657.65	12259.73
657.98	5987.09
658.31	10867.11
658.65	4582.77
658.98	7552.91
659.31	7662.91
659.65	5717.93
659.98	7105.87
660.31	10438.79
660.65	6619.04
660.98	7049.69
661.31	5937.94
661.65	6497.33
661.98	8006.97
662.31	7250.98
662.65	9242.78
662.98	6092.41
663.31	7581.00
663.65	6076.03
663.98	4351.06
664.31	6483.28
664.64	7021.61
664.98	4227.01
665.31	4587.45
665.64	4358.08
665.97	6066.67
666.31	4671.71
666.64	5406.64
666.97	4650.64
667.30	4009.34
667.64	3410.16
667.97	6314.77
668.30	5879.43
668.63	7087.14
668.96	7847.82
669.30	4550.00
669.63	7714.41
669.96	6478.60
670.29	5287.27
670.62	6558.18
670.96	7730.79
671.29	4065.51
671.62	3646.55
671.95	9706.20
672.28	7349.28
672.62	3854.86
672.95	6600.31
673.28	7304.81
673.61	6195.40
673.94	5657.07
674.27	7875.90
674.60	5186.63
674.94	5617.29
675.27	6864.79
675.60	11433.52
675.93	4748.95
676.26	4196.58
676.59	6277.32
676.92	6579.25
677.25	6494.99
677.58	6988.84
677.92	6951.39
678.25	5769.42
678.58	6342.85
678.91	8561.68
679.24	6953.73
679.57	3957.85
679.90	5959.00
680.23	7758.88
680.56	7358.64
680.89	5980.07
681.22	6932.67
681.55	6466.90
681.88	5303.65
682.21	3412.50
682.54	8990.00
682.87	7136.29
683.20	9256.82
683.53	5816.23
683.86	5156.20
684.19	4514.89
684.52	6935.01
684.85	3442.93
685.18	6069.01
685.51	6942.03
685.84	3105.89
686.17	4919.81
686.50	3978.91
686.83	4922.15
687.16	3747.20
687.49	3398.46
687.82	6267.95
688.15	6071.35
688.48	5579.84
688.81	8283.16
689.14	5549.41
689.47	6064.33
689.80	5755.38
690.13	9069.58
690.46	5284.93
690.79	8683.39
691.11	4919.81
691.44	5378.55
691.77	8325.29
692.10	12233.98
692.43	10647.10
692.76	6574.56
693.09	2920.99
693.42	3658.26
693.75	4077.21
694.07	10764.12
694.40	6965.43
694.73	6356.90
695.06	8042.08
695.39	5511.96
695.72	3803.37
696.05	7405.46
696.37	3742.52
696.70	7232.26
697.03	6504.35
697.36	8861.27
697.69	4695.11
698.01	6436.47
698.34	3763.58
698.67	5081.30
699.00	3543.57
699.33	3925.08
699.65	6061.99
699.98	5760.06
700.31	9088.30
700.64	4344.03
700.97	3674.64
701.29	6689.25
701.62	4435.32
701.95	3059.08
702.28	3723.79
702.60	3990.61
702.93	5298.97
703.26	10558.16
703.59	5317.70
703.91	4849.59
704.24	4732.56
704.57	5350.46
704.89	12395.48
705.22	4603.83
705.55	5263.86
705.88	3220.58
706.20	4306.59
706.53	6417.75
706.86	4051.47
707.18	3047.38
707.51	4409.57
707.84	3861.88
708.16	7382.05
708.49	5689.84
708.82	4093.60
709.14	6829.68
709.47	3442.93
709.80	10590.92
710.12	7903.99
710.45	3878.27
710.78	6775.85
711.10	3627.83
711.43	20690.34
711.75	3588.04
712.08	3602.08
712.41	5329.40
712.73	4884.70
713.06	5607.92
713.38	4177.86
713.71	2473.95
714.04	5600.90
714.36	5446.43
714.69	3028.65
715.01	7943.78
715.34	3059.08
715.67	2628.42
715.99	7712.07
716.32	6221.14
716.64	3199.51
716.97	5228.76
717.29	5254.50
717.62	4545.32
717.94	6532.44
718.27	9275.54
718.59	5490.90
718.92	2693.96
719.24	3583.36
719.57	4830.87
719.89	2663.53
720.22	4807.46
720.54	4730.22
720.87	3332.92
721.19	6506.69
721.52	4414.25
721.84	2663.53
722.17	4035.08
722.49	3536.55
722.82	4957.25
723.14	5696.86
723.47	6422.43
723.79	3480.38
724.12	2443.52
724.44	3620.81
724.76	4528.94
725.09	4425.95
725.41	4276.16
725.74	5011.09
726.06	4496.17
726.39	5385.57
726.71	6167.31
727.03	4861.29
727.36	6452.86
727.68	5008.75
728.01	6754.79
728.33	4720.86
728.65	6064.33
728.98	5214.71
729.30	4905.76
729.62	5256.84
729.95	6186.04
730.27	6483.28
730.59	6574.56
730.92	5774.10
731.24	3971.89
731.56	4173.18
731.89	4718.52
732.21	8503.17
732.53	3751.88
732.86	3426.54
733.18	2815.66
733.50	6403.71
733.83	7016.93
734.15	3719.11
734.47	4348.72
734.80	11136.27
735.12	5769.42
735.44	4507.87
735.76	3749.54
736.09	6902.24
736.41	6551.16
736.73	7761.22
737.05	5877.09
737.38	2396.71
737.70	4681.07
738.02	2473.95
738.34	3955.51
738.67	5554.09
738.99	3468.67
739.31	5118.75
739.63	4470.42
739.96	4035.08
740.28	5806.87
740.60	4491.49
740.92	5469.83
741.24	4800.44
741.57	5151.52
741.89	5996.45
742.21	6118.16
742.53	6593.29
742.85	6066.67
743.17	3911.04
743.50	4905.76
743.82	5331.74
744.14	2827.37
744.46	5174.92
744.78	3777.62
745.10	5991.77
745.42	4931.51
745.75	4533.62
746.07	3833.80
746.39	4227.01
746.71	3833.80
747.03	3658.26
747.35	6530.09
747.67	3566.98
747.99	6317.11
748.31	7297.79
748.64	6209.44
748.96	9329.38
749.28	5121.09
749.60	4257.43
749.92	4531.28
750.24	6169.65
750.56	5839.64
750.88	6619.04
751.20	5102.37
751.52	5261.52
751.84	3754.22
752.16	2768.85
752.48	4121.68
752.80	10200.05
753.12	4234.03
753.44	3742.52
753.76	5528.35
754.08	4863.63
754.40	6157.95
754.72	3379.73
755.04	4102.96
755.36	6607.33
755.68	6312.42
756.00	4320.63
756.32	3019.29
756.64	4755.97
756.96	7239.28
757.28	5280.25
757.60	7281.41
757.92	7281.41
758.24	3815.07
758.56	5083.64
758.88	3779.97
759.20	4870.65
759.52	6356.90
759.84	4873.00
760.15	2518.42
760.47	3735.50
760.79	2581.61
761.11	3676.98
761.43	5207.69
761.75	4915.12
762.07	6897.56
762.39	3468.67
762.71	3192.49
763.02	5172.58
763.34	2895.24
763.66	4816.82
763.98	2984.18
764.30	6069.01
764.62	6541.80
764.94	7386.73
765.25	4432.97
765.57	5174.92
765.89	7145.66
766.21	4542.98
766.53	4610.86
766.85	5474.51
767.16	9006.38
767.48	5142.16
767.80	7227.57
768.12	3335.26
768.44	2684.59
768.75	3913.38
769.07	4987.68
769.39	6677.55
769.71	5640.69
770.02	5621.97
770.34	7274.38
770.66	7726.11
770.98	4676.39
771.29	5114.07
771.61	2612.04
771.93	6825.00
772.25	4622.56
772.56	6455.20
772.88	8231.66
773.20	4187.22
773.52	7618.44
773.83	5703.89
774.15	6979.48
774.47	4484.47
774.78	5280.25
775.10	4865.97
775.42	11440.54
775.73	10621.35
776.05	4929.17
776.37	3084.83
776.68	4212.96
777.00	7206.51
777.32	3894.65
777.63	3510.80
777.95	2347.56
778.27	5004.07
778.58	6750.10
778.90	7583.34
779.22	3791.67
779.53	3651.24
779.85	9149.15
780.16	11501.39
780.48	4402.55
780.80	5200.67
781.11	7087.14
781.43	5427.70
781.74	4042.11
782.06	3211.22
782.38	2256.28
782.69	7786.96
783.01	4170.83
783.32	10457.51
783.64	5144.50
783.95	4966.62
784.27	5947.30
784.58	4257.43
784.90	5849.00
785.22	6827.34
785.53	6057.31
785.85	4304.25
786.16	6244.55
786.48	4051.47
786.79	6981.82
787.11	3124.62
787.42	4447.02
787.74	2703.32
788.05	5556.43
788.37	5095.35
788.68	2670.55
789.00	9020.42
789.31	3272.07
789.62	3328.24
789.94	4828.53
790.25	3585.70
790.57	4430.63
790.88	4189.56
791.20	4957.25
791.51	4531.28
791.83	5256.84
792.14	4711.50
792.45	3494.42
792.77	4404.89
793.08	3723.79
793.40	5724.95
793.71	3641.87
794.02	5214.71
794.34	3382.07
794.65	7094.16
794.97	7763.56
795.28	4601.49
795.59	3473.36
795.91	4608.51
796.22	4999.38
796.53	8676.37
796.85	5404.30
797.16	4432.97
797.48	3080.14
797.79	5888.79
798.10	2651.83
798.42	11499.05
798.73	5537.71
799.04	2843.75
799.36	2347.56
799.67	9748.33
799.98	3091.85
800.29	3494.42
800.61	7279.07
800.92	2874.18
801.23	4475.10
801.55	4922.15
801.86	11700.34
802.17	3398.46
802.48	3344.63
802.80	5224.08
803.11	5881.77
803.42	5984.75
803.73	2853.11
804.05	6560.52
804.36	2621.40
804.67	4294.88
804.98	3089.51
805.30	4702.14
805.61	4521.92
805.92	2499.69
806.23	2808.64
806.54	6773.51
806.86	3674.64
807.17	4227.01
807.48	5212.37
807.79	8802.75
808.10	6195.40
808.41	7171.40
808.73	3686.34
809.04	4456.38
809.35	5916.87
809.66	4189.56
809.97	3220.58
810.28	6153.27
810.60	3243.98
810.91	6008.16
811.22	11466.28
811.53	5956.66
811.84	3555.27
812.15	6946.71
812.46	2853.11
812.77	4215.30
813.08	6069.01
813.40	8493.80
813.71	5418.34
814.02	3115.25
814.33	4208.28
814.64	4538.30
814.95	4308.93
815.26	5949.64
815.57	7606.74
815.88	3913.38
816.19	5877.09
816.50	4603.83
816.81	4716.18
817.12	5827.93
817.43	4400.21
817.74	3655.92
818.05	4828.53
818.36	5834.96
818.67	4999.38
818.98	3871.25
819.29	2668.21
819.60	6249.23
819.91	4067.85
820.22	7999.95
820.53	3819.75
820.84	3389.10
821.15	2761.83
821.46	5226.42
821.77	5661.76
822.08	4463.40
822.39	3222.92
822.70	4767.67
823.01	6230.51
823.32	2963.12
823.63	7052.03
823.94	3131.64
824.25	8854.25
824.56	5680.48
824.87	8994.68
825.17	4219.99
825.48	4229.35
825.79	6202.42
826.10	4128.70
826.41	5874.74
826.72	4620.22
827.03	6597.97
827.34	3943.80
827.65	5004.07
827.95	5748.36
828.26	6289.02
828.57	3611.45
828.88	3534.21
829.19	2286.70
829.50	9514.28
829.80	3122.27
830.11	3178.45
830.42	7412.48
830.73	3658.26
831.04	4355.74
831.35	6623.72
831.65	4624.90
831.96	5617.29
832.27	4564.04
832.58	4404.89
832.88	5558.77
833.19	6050.28
833.50	6768.83
833.81	8372.10
834.12	7627.81
834.42	5764.74
834.73	5385.57
835.04	5348.12
835.35	7323.54
835.65	3220.58
835.96	6710.32
836.27	3346.97
836.57	3583.36
836.88	8879.99
837.19	5923.90
837.50	5025.13
837.80	6593.29
838.11	5193.65
838.42	3185.47
838.72	2710.34
839.03	8383.80
839.34	3812.73
839.64	3658.26
839.95	3896.99
840.26	4851.93
840.56	4645.96
840.87	8765.31
841.18	5708.57
841.48	4318.29
841.79	6335.83
842.10	5966.03
842.40	2717.36
842.71	2527.78
843.01	5186.63
843.32	4725.54
843.63	3162.06
843.93	4800.44
844.24	4711.50
844.54	3176.11
844.85	4077.21
845.16	3262.71
845.46	2518.42
845.77	6382.64
846.07	7307.15
846.38	3950.82
846.68	3084.83
846.99	2511.39
847.29	4301.90
847.60	3316.54
847.91	5074.28
848.21	5535.37
848.52	4617.88
848.82	4987.68
849.13	2960.78
849.43	5144.50
849.74	9006.38
850.04	8086.55
850.35	5987.09
850.65	6726.70
850.96	6413.07
851.26	2825.03
851.57	5291.95
851.87	4161.47
852.17	4844.91
852.48	5970.71
852.78	5678.14
853.09	6019.86
853.39	4449.36
853.70	2869.50
854.00	3229.94
854.31	3632.51
854.61	3391.44
854.91	3822.09
855.22	2731.41
855.52	4748.95
855.83	3625.49
856.13	2715.02
856.43	4447.02
856.74	5219.39
857.04	4793.42
857.35	6518.39
857.65	5327.06
857.95	6389.66
858.26	2988.86
858.56	32683.24
858.86	11300.11
859.17	5322.38
859.47	2300.75
859.77	3662.94
860.08	6799.26
860.38	7061.40
860.68	3375.05
860.99	7576.31
861.29	8645.94
861.59	3468.67
861.90	4945.55
862.20	5039.17
862.50	4124.02
862.80	4131.05
863.11	7272.04
863.41	5771.76
863.71	3761.24
864.02	6195.40
864.32	4826.18
864.62	3059.08
864.92	3204.19
865.23	5172.58
865.53	10775.83
865.83	4587.45
866.13	5860.70
866.43	5940.28
866.74	4629.58
867.04	5167.90
867.34	15943.73
867.64	3953.16
867.95	5933.26
868.25	7901.65
868.55	6906.92
868.85	3936.78
869.15	3503.78
869.45	4730.22
869.76	4407.23
870.06	5963.68
870.36	5432.38
870.66	3857.20
870.96	5217.05
871.26	4222.33
871.56	5107.05
871.87	2717.36
872.17	11222.87
872.47	5696.86
872.77	4674.05
873.07	4723.20
873.37	3117.59
873.67	5408.98
873.97	4706.82
874.27	10548.79
874.58	3059.08
874.88	8264.43
875.18	2944.39
875.48	6239.87
875.78	7052.03
876.08	4353.40
876.38	6171.99
876.68	5451.11
876.98	3974.23
877.28	5769.42
877.58	4821.50
877.88	3260.37
878.18	4645.96
878.48	6799.26
878.78	5849.00
879.08	8411.89
879.38	5341.10
879.68	4035.08
879.98	3087.17
880.28	9825.57
880.58	2731.41
880.88	4098.28
881.18	6099.44
881.48	4613.20
881.78	4358.08
882.08	2850.77
882.38	4189.56
882.68	3133.98
882.98	3583.36
883.28	4388.50
883.58	2818.00
883.88	5659.42
884.18	4826.18
>>>>>End Processed Spectral Data<<<<<
