SpectraSuite Data File
++++++++++++++++++++++++++++++++++++
Date: Mon Jun 08 13:57:45 CEST 2015
User: jiasu
Dark Spectrum Present: No
Reference Spectrum Present: No
Number of Sampled Component Spectra: 1
Spectrometers: USB2+F02403
Integration Time (usec): 30000000 (USB2+F02403)
Spectra Averaged: 1 (USB2+F02403)
Boxcar Smoothing: 0 (USB2+F02403)
Correct for Electrical Dark: No (USB2+F02403)
Strobe/Lamp Enabled: No (USB2+F02403)
Correct for Detector Non-linearity: No (USB2+F02403)
Correct for Stray Light: No (USB2+F02403)
Number of Pixels in Processed Spectrum: 2048
>>>>>Begin Processed Spectral Data<<<<<
177.51	568.75
177.90	568.75
178.28	568.75
178.67	479.81
179.05	425.98
179.44	9844.29
179.82	3662.94
180.20	16781.64
180.59	4978.32
180.97	4910.44
181.36	7279.07
181.74	7030.97
182.12	4688.09
182.51	7295.45
182.89	5687.50
183.28	6817.98
183.66	5259.18
184.04	7311.83
184.43	5481.53
184.81	4337.01
185.19	4535.96
185.58	8950.21
185.96	8681.05
186.35	3405.48
186.73	7632.49
187.11	10183.67
187.50	8971.27
187.88	6733.72
188.26	6661.16
188.65	5556.43
189.03	3765.92
189.41	4524.26
189.80	13940.23
190.18	5423.02
190.56	6118.16
190.95	6436.47
191.33	6392.00
191.71	8051.44
192.10	7059.06
192.48	7634.83
192.86	4070.19
193.25	11454.58
193.63	3192.49
194.01	7695.68
194.40	4369.78
194.78	8276.13
195.16	3609.11
195.54	7737.81
195.93	3660.60
196.31	5640.69
196.69	4248.07
197.08	6597.97
197.46	6157.95
197.84	4947.89
198.22	11967.16
198.61	4173.18
198.99	8161.45
199.37	3426.54
199.75	4489.15
200.14	5668.78
200.52	6679.89
200.90	4744.27
201.28	4554.68
201.67	8961.91
202.05	5369.19
202.43	7592.70
202.81	5600.90
203.20	2710.34
203.58	7033.31
203.96	5605.58
204.34	8755.94
204.72	5846.66
205.11	5116.41
205.49	6207.10
205.87	7159.70
206.25	7222.89
206.63	4571.07
207.02	4257.43
207.40	5898.15
207.78	5224.08
208.16	6862.45
208.54	5025.13
208.93	3485.06
209.31	10937.32
209.69	5940.28
210.07	3220.58
210.45	5039.17
210.83	6923.30
211.22	5350.46
211.60	5900.49
211.98	3213.56
212.36	3192.49
212.74	4142.75
213.12	4007.00
213.50	3513.14
213.89	4971.30
214.27	7805.69
214.65	6527.75
215.03	7637.17
215.41	6132.20
215.79	3826.78
216.17	2410.75
216.55	6930.33
216.94	7529.50
217.32	4318.29
217.70	5841.98
218.08	4582.77
218.46	3749.54
218.84	3274.41
219.22	7447.58
219.60	3698.05
219.98	10640.08
220.36	6455.20
220.74	6129.86
221.12	7932.08
221.51	3667.62
221.89	4039.76
222.27	9448.74
222.65	4629.58
223.03	4606.17
223.41	2495.01
223.79	6794.58
224.17	5703.89
224.55	4585.11
224.93	4514.89
225.31	6487.96
225.69	5032.15
226.07	5029.81
226.45	3302.50
226.83	6705.63
227.21	2590.97
227.59	5404.30
227.97	6193.06
228.35	5891.13
228.73	9111.71
229.11	4842.57
229.49	9205.33
229.87	3033.33
230.25	5327.06
230.63	4374.46
231.01	3499.10
231.39	8025.70
231.77	4983.00
232.15	3620.81
232.53	6698.61
232.91	9493.21
233.29	6523.07
233.67	5123.43
234.05	4262.12
234.43	8634.24
234.81	8772.33
235.19	2890.56
235.57	4482.13
235.95	9685.14
236.33	5238.12
236.71	4751.29
237.09	4638.94
237.47	3763.58
237.84	6438.81
238.22	10225.80
238.60	5034.49
238.98	6160.29
239.36	4601.49
239.74	6705.63
240.12	5315.36
240.50	4599.15
240.88	10576.88
241.26	6249.23
241.64	5364.51
242.01	6923.30
242.39	6792.23
242.77	3389.10
243.15	3077.80
243.53	2841.41
243.91	2801.62
244.29	4564.04
244.67	3309.52
245.04	5303.65
245.42	4603.83
245.80	4905.76
246.18	4849.59
246.56	3220.58
246.94	4664.69
247.32	6377.96
247.69	5322.38
248.07	7398.43
248.45	6246.89
248.83	3316.54
249.21	3566.98
249.59	5928.58
249.96	9680.46
250.34	4376.80
250.72	10626.03
251.10	7396.09
251.48	3868.91
251.86	6059.65
252.23	4259.78
252.61	5313.02
252.99	6740.74
253.37	3346.97
253.74	3714.43
254.12	4465.74
254.50	5837.30
254.88	4755.97
255.26	6700.95
255.63	4196.58
256.01	11269.68
256.39	3939.12
256.77	4262.12
257.14	5980.07
257.52	7368.01
257.90	2995.89
258.28	4606.17
258.65	3129.30
259.03	3335.26
259.41	3016.95
259.79	3871.25
260.16	4456.38
260.54	6125.18
260.92	4510.21
261.30	7964.84
261.67	3489.74
262.05	10017.49
262.43	4191.90
262.80	5107.05
263.18	5430.04
263.56	5767.08
263.94	3894.65
264.31	5666.44
264.69	6244.55
265.07	5577.50
265.44	3220.58
265.82	6637.76
266.20	3297.81
266.57	6399.02
266.95	5968.37
267.33	6155.61
267.70	11882.90
268.08	8067.83
268.46	6228.17
268.83	5018.11
269.21	5224.08
269.59	4435.32
269.96	6930.33
270.34	7286.09
270.71	11066.05
271.09	4236.37
271.47	4608.51
271.84	4697.46
272.22	8035.06
272.60	6443.49
272.97	3119.93
273.35	2890.56
273.72	10214.10
274.10	3964.87
274.48	6527.75
274.85	4580.43
275.23	6333.49
275.60	4887.04
275.98	3978.91
276.36	5366.85
276.73	5174.92
277.11	6913.94
277.48	5621.97
277.86	3588.04
278.24	3398.46
278.61	3225.26
278.99	3440.59
279.36	7669.94
279.74	8278.47
280.11	3590.38
280.49	7077.78
280.86	6726.70
281.24	3714.43
281.61	5184.29
281.99	10871.79
282.37	7936.76
282.74	5891.13
283.12	4465.74
283.49	3981.25
283.87	11117.54
284.24	5039.17
284.62	5518.98
284.99	4936.19
285.37	5439.40
285.74	5617.29
286.12	4152.11
286.49	2897.58
286.87	2586.29
287.24	5556.43
287.62	3824.44
287.99	8124.00
288.37	7850.16
288.74	5809.21
289.12	7098.84
289.49	4603.83
289.86	5734.31
290.24	4568.73
290.61	5121.09
290.99	4669.37
291.36	2995.89
291.74	8362.73
292.11	3365.69
292.49	3281.43
292.86	6576.91
293.23	4283.18
293.61	4599.15
293.98	6293.70
294.36	5308.34
294.73	3964.87
295.11	2890.56
295.48	4058.49
295.85	7360.98
296.23	5392.59
296.60	4138.07
296.98	3440.59
297.35	4561.70
297.72	3138.66
298.10	3300.16
298.47	3295.47
298.85	4121.68
299.22	13146.79
299.59	2612.04
299.97	4990.02
300.34	4156.79
300.71	10279.63
301.09	4762.99
301.46	5977.73
301.83	5093.01
302.21	4117.00
302.58	6319.45
302.95	9221.71
303.33	6406.05
303.70	4608.51
304.07	6024.54
304.45	8002.29
304.82	7672.28
305.19	5064.92
305.57	2787.58
305.94	9914.51
306.31	7232.26
306.69	4454.04
307.06	5048.54
307.43	2712.68
307.81	5825.59
308.18	6450.52
308.55	10097.07
308.92	4175.52
309.30	6551.16
309.67	6478.60
310.04	5355.15
310.42	5135.14
310.79	6487.96
311.16	4299.56
311.53	4826.18
311.91	5331.74
312.28	5303.65
312.65	3417.18
313.02	6752.45
313.40	6958.41
313.77	2843.75
314.14	8585.08
314.51	3445.27
314.89	9970.68
315.26	5320.04
315.63	3761.24
316.00	5837.30
316.37	4166.15
316.75	4507.87
317.12	3899.33
317.49	4229.35
317.86	10759.44
318.23	6991.18
318.61	5736.65
318.98	3513.14
319.35	5598.56
319.72	8477.42
320.09	7571.63
320.47	5586.86
320.84	5083.64
321.21	6497.33
321.58	5053.22
321.95	6567.54
322.32	3646.55
322.70	4828.53
323.07	5521.32
323.44	6417.75
323.81	5219.39
324.18	6071.35
324.55	9935.57
324.92	6300.72
325.30	2485.65
325.67	7370.35
326.04	5795.17
326.41	4519.57
326.78	3698.05
327.15	6333.49
327.52	11253.30
327.89	4379.14
328.27	5404.30
328.64	8449.33
329.01	5114.07
329.38	8088.89
329.75	8990.00
330.12	3363.35
330.49	4929.17
330.86	4784.06
331.23	8589.77
331.60	5930.92
331.97	6848.41
332.34	3922.74
332.71	5275.57
333.09	4390.84
333.46	4355.74
333.83	6148.59
334.20	4919.81
334.57	5879.43
334.94	5128.11
335.31	3445.27
335.68	6569.88
336.05	4819.16
336.42	3597.40
336.79	7328.22
337.16	5076.62
337.53	4121.68
337.90	2761.83
338.27	3613.79
338.64	3002.91
339.01	5100.03
339.38	5373.87
339.75	2892.90
340.12	3131.64
340.49	4285.52
340.86	8954.89
341.23	5205.35
341.60	4713.84
341.97	4940.87
342.34	3344.63
342.71	6059.65
343.08	7218.21
343.45	4660.01
343.82	5797.51
344.19	5673.46
344.55	5076.62
344.92	7510.78
345.29	4912.78
345.66	5277.91
346.03	4461.06
346.40	5823.25
346.77	2846.09
347.14	4821.50
347.51	6490.31
347.88	5951.98
348.25	6118.16
348.62	4870.65
348.99	4833.21
349.35	4643.62
349.72	4255.09
350.09	6076.03
350.46	5884.11
350.83	3239.30
351.20	6363.92
351.57	4599.15
351.94	4482.13
352.31	3588.04
352.67	6141.57
353.04	4159.13
353.41	3176.11
353.78	5776.44
354.15	7220.55
354.52	4007.00
354.89	4875.34
355.25	3435.91
355.62	4898.74
355.99	5933.26
356.36	3141.00
356.73	4210.62
357.10	4269.14
357.46	2457.56
357.83	2366.28
358.20	3492.08
358.57	8365.07
358.94	4931.51
359.30	4657.67
359.67	3765.92
360.04	2752.47
360.41	5696.86
360.78	4065.51
361.14	6157.95
361.51	5362.17
361.88	7173.74
362.25	5488.56
362.61	3871.25
362.98	4383.82
363.35	3454.63
363.72	7852.50
364.08	2869.50
364.45	5427.70
364.82	3227.60
365.19	2534.80
365.55	4620.22
365.92	4645.96
366.29	4376.80
366.66	3648.90
367.02	4018.70
367.39	2857.79
367.76	3630.17
368.13	3908.69
368.49	2738.43
368.86	2686.94
369.23	9090.64
369.59	3061.42
369.96	4173.18
370.33	3494.42
370.69	5703.89
371.06	3384.41
371.43	3145.68
371.79	3655.92
372.16	2846.09
372.53	5071.94
372.89	7023.95
373.26	5324.72
373.63	4851.93
373.99	4444.68
374.36	3943.80
374.73	6282.00
375.09	4915.12
375.46	6888.20
375.83	4107.64
376.19	5132.79
376.56	4674.05
376.93	16748.87
377.29	2771.19
377.66	7494.40
378.02	4877.68
378.39	7555.25
378.76	3691.02
379.12	3819.75
379.49	4538.30
379.85	3950.82
380.22	5167.90
380.59	8645.94
380.95	4713.84
381.32	4196.58
381.68	3473.36
382.05	5715.59
382.42	5259.18
382.78	6235.19
383.15	4287.86
383.51	3398.46
383.88	4692.77
384.24	3737.84
384.61	10274.95
384.97	3129.30
385.34	2609.70
385.70	12439.95
386.07	5900.49
386.44	3063.76
386.80	2616.72
387.17	7674.62
387.53	5694.52
387.90	4954.91
388.26	5334.08
388.63	7529.50
388.99	4676.39
389.36	4219.99
389.72	2743.11
390.09	5341.10
390.45	3513.14
390.82	6010.50
391.18	3295.47
391.55	7499.08
391.91	4477.44
392.28	5132.79
392.64	3831.46
393.00	3531.87
393.37	4418.93
393.73	5432.38
394.10	6590.95
394.46	5345.78
394.83	5097.69
395.19	5827.93
395.56	9509.60
395.92	4821.50
396.28	6015.18
396.65	8283.16
397.01	5579.84
397.38	5469.83
397.74	6839.05
398.11	6193.06
398.47	4788.74
398.83	6345.19
399.20	5989.43
399.56	6244.55
399.93	5392.59
400.29	3808.05
400.65	3569.32
401.02	7716.75
401.38	4077.21
401.74	3475.70
402.11	2803.96
402.47	10689.23
402.84	5296.63
403.20	6801.60
403.56	7627.81
403.93	5081.30
404.29	5551.75
404.65	10181.33
405.02	4489.15
405.38	5654.73
405.74	5261.52
406.11	3372.71
406.47	4704.48
406.83	3054.40
407.20	3974.23
407.56	4196.58
407.92	5919.21
408.29	3307.18
408.65	3613.79
409.01	3038.02
409.37	7016.93
409.74	3658.26
410.10	6679.89
410.46	4191.90
410.83	8636.58
411.19	4262.12
411.55	3714.43
411.91	6614.35
412.28	8648.28
412.64	9078.94
413.00	5282.59
413.36	4255.09
413.73	8840.20
414.09	5184.29
414.45	3618.47
414.81	4372.12
415.18	5135.14
415.54	3344.63
415.90	2832.05
416.26	4126.36
416.63	11084.78
416.99	4566.39
417.35	5060.24
417.71	5423.02
418.07	10045.58
418.44	9980.04
418.80	3723.79
419.16	4332.33
419.52	5680.48
419.88	6806.28
420.25	5724.95
420.61	4135.73
420.97	3784.65
421.33	5317.70
421.69	3424.20
422.05	4159.13
422.42	7988.25
422.78	5093.01
423.14	8336.99
423.50	4388.50
423.86	3190.15
424.22	4809.80
424.58	3726.13
424.95	5444.09
425.31	6654.14
425.67	5696.86
426.03	2848.43
426.39	6448.18
426.75	2672.89
427.11	6085.39
427.47	5076.62
427.83	3253.34
428.20	5898.15
428.56	5612.60
428.92	4159.13
429.28	7983.57
429.64	8844.88
430.00	5055.56
430.36	7843.14
430.72	3922.74
431.08	4201.26
431.44	2829.71
431.80	2600.34
432.16	2677.57
432.52	3578.68
432.88	7145.66
433.25	12088.87
433.61	6644.78
433.97	3431.23
434.33	5102.37
434.69	9315.33
435.05	3480.38
435.41	6326.47
435.77	3513.14
436.13	2179.04
436.49	3082.49
436.85	4697.46
437.21	6141.57
437.57	4060.83
437.93	3307.18
438.29	3845.50
438.65	4889.38
439.01	6628.40
439.37	4865.97
439.73	4648.30
440.09	4292.54
440.45	5617.29
440.81	4117.00
441.17	5521.32
441.53	6672.87
441.88	3831.46
442.24	3089.51
442.60	3002.91
442.96	4903.42
443.32	3679.32
443.68	5170.24
444.04	4212.96
444.40	5050.88
444.76	6963.09
445.12	8547.64
445.48	6403.71
445.84	6595.63
446.20	4362.76
446.55	2497.35
446.91	6347.53
447.27	6078.37
447.63	5916.87
447.99	5296.63
448.35	3187.81
448.71	2881.20
449.07	3985.93
449.43	3016.95
449.78	2904.60
450.14	5853.68
450.50	9219.37
450.86	4606.17
451.22	5668.78
451.58	5062.58
451.94	2946.73
452.29	7857.18
452.65	5446.43
453.01	7929.74
453.37	3344.63
453.73	2537.14
454.09	3358.67
454.44	3368.03
454.80	3009.93
455.16	4170.83
455.52	5217.05
455.88	6326.47
456.23	2855.45
456.59	5109.39
456.95	4992.36
457.31	4861.29
457.67	3576.34
458.02	5624.31
458.38	2775.88
458.74	8250.39
459.10	3103.55
459.45	4781.71
459.81	3501.44
460.17	34129.69
460.53	3136.32
460.88	4397.87
461.24	5507.28
461.60	5224.08
461.96	4234.03
462.31	7007.56
462.67	3817.41
463.03	7035.65
463.39	4505.53
463.74	4472.76
464.10	2740.77
464.46	3613.79
464.81	3152.70
465.17	7183.10
465.53	4725.54
465.88	3077.80
466.24	2979.50
466.60	5558.77
466.95	4444.68
467.31	4131.05
467.67	3045.04
468.03	10003.45
468.38	6342.85
468.74	6083.05
469.09	3709.75
469.45	6239.87
469.81	5085.98
470.16	5666.44
470.52	6752.45
470.88	6279.66
471.23	4739.58
471.59	3559.95
471.95	8945.53
472.30	4851.93
472.66	7922.71
473.01	9511.94
473.37	8362.73
473.73	4463.40
474.08	3721.45
474.44	4229.35
474.79	3988.27
475.15	4535.96
475.51	2635.44
475.86	2745.45
476.22	6530.09
476.57	6293.70
476.93	3030.99
477.29	4617.88
477.64	4798.10
478.00	7353.96
478.35	2670.55
478.71	4308.93
479.06	3623.15
479.42	6733.72
479.77	8404.86
480.13	2960.78
480.48	5046.20
480.84	3911.04
481.19	5874.74
481.55	5268.55
481.91	5750.70
482.26	4535.96
482.62	3534.21
482.97	4180.20
483.33	3726.13
483.68	4830.87
484.04	8720.84
484.39	5050.88
484.74	3531.87
485.10	3229.94
485.45	6314.77
485.81	8746.58
486.16	7435.88
486.52	4423.61
486.87	4259.78
487.23	4175.52
487.58	4957.25
487.94	2860.13
488.29	6913.94
488.65	5158.54
489.00	8879.99
489.35	4468.08
489.71	6567.54
490.06	6136.88
490.42	5018.11
490.77	5518.98
491.12	6249.23
491.48	7630.15
491.83	7332.90
492.19	4669.37
492.54	3880.61
492.89	4744.27
493.25	3896.99
493.60	5743.67
493.96	5263.86
494.31	9357.46
494.66	8093.57
495.02	7569.29
495.37	6029.22
495.72	6420.09
496.08	8285.50
496.43	5446.43
496.79	9092.98
497.14	4814.48
497.49	5228.76
497.85	6071.35
498.20	5273.23
498.55	6647.12
498.91	6775.85
499.26	8224.64
499.61	10162.61
499.96	7309.49
500.32	9469.81
500.67	11204.14
501.02	6223.48
501.38	5067.26
501.73	15901.60
502.08	7538.87
502.44	7581.00
502.79	7417.16
503.14	6602.65
503.49	5570.48
503.85	8458.70
504.20	5802.19
504.55	6607.33
504.90	14705.59
505.26	9563.43
505.61	6796.92
505.96	7265.02
506.31	7229.91
506.67	9650.03
507.02	6490.31
507.37	5355.15
507.72	7705.04
508.08	15328.17
508.43	6993.52
508.78	6724.36
509.13	12547.61
509.48	7400.77
509.84	7681.64
510.19	8769.99
510.54	8114.64
510.89	8226.98
511.24	6251.57
511.59	12219.94
511.95	9102.34
512.30	6794.58
512.65	10637.73
513.00	6485.62
513.35	8870.63
513.70	8360.39
514.06	11208.83
514.41	8383.80
514.76	7274.38
515.11	6485.62
515.46	5551.75
515.81	8360.39
516.16	10750.08
516.52	10466.88
516.87	5951.98
517.22	5497.92
517.57	10263.25
517.92	8355.71
518.27	6099.44
518.62	10338.15
518.97	7045.01
519.32	6801.60
519.67	8292.52
520.03	6153.27
520.38	8248.05
520.73	6686.91
521.08	8786.37
521.43	9423.00
521.78	9664.07
522.13	6019.86
522.48	7194.81
522.83	7332.90
523.18	5865.38
523.53	8753.60
523.88	6040.92
524.23	10064.30
524.58	5879.43
524.93	7311.83
525.28	10141.54
525.63	7796.32
525.98	11424.15
526.33	11225.21
526.68	7854.84
527.03	9607.90
527.38	7211.19
527.73	4959.60
528.08	7321.20
528.43	6787.55
528.78	6846.07
529.13	7538.87
529.48	8435.29
529.83	6689.25
530.18	5268.55
530.53	8273.79
530.88	7281.41
531.23	5916.87
531.58	7012.24
531.93	8688.07
532.28	8308.90
532.63	11129.25
532.98	4798.10
533.33	9870.04
533.68	5390.25
534.02	5132.79
534.37	5219.39
534.72	5137.48
535.07	8428.27
535.42	6998.20
535.77	5750.70
536.12	5432.38
536.47	5055.56
536.82	7936.76
537.17	8990.00
537.51	5355.15
537.86	4758.31
538.21	5397.28
538.56	10785.19
538.91	5341.10
539.26	4706.82
539.61	8765.31
539.95	10061.96
540.30	4826.18
540.65	6263.27
541.00	5273.23
541.35	10188.35
541.70	10015.15
542.04	7211.19
542.39	10019.83
542.74	5851.34
543.09	4739.58
543.44	7845.48
543.78	6101.78
544.13	5863.04
544.48	9652.37
544.83	6843.73
545.18	5170.24
545.52	8334.65
545.87	8334.65
546.22	4564.04
546.57	5755.38
546.91	5305.99
547.26	5458.13
547.61	8189.53
547.96	7545.89
548.30	4966.62
548.65	7157.36
549.00	6293.70
549.35	6719.68
549.69	6663.51
550.04	6120.50
550.39	4774.69
550.74	4734.90
551.08	8971.27
551.43	7702.70
551.78	4997.04
552.12	8381.46
552.47	8051.44
552.82	8098.25
553.17	6612.01
553.51	6502.01
553.86	8877.65
554.21	6792.23
554.55	6483.28
554.90	7475.67
555.25	5078.96
555.59	9334.06
555.94	5327.06
556.29	6155.61
556.63	4884.70
556.98	8982.98
557.32	8365.07
557.67	5317.70
558.02	4968.96
558.36	8372.10
558.71	4269.14
559.06	6195.40
559.40	6061.99
559.75	3915.72
560.09	5359.83
560.44	5221.74
560.79	6494.99
561.13	5142.16
561.48	6317.11
561.82	6675.21
562.17	4273.82
562.52	5284.93
562.86	5898.15
563.21	6494.99
563.55	5146.84
563.90	6057.31
564.24	7052.03
564.59	6101.78
564.94	7927.39
565.28	8058.46
565.63	7389.07
565.97	5341.10
566.32	7517.80
566.66	8454.02
567.01	4596.81
567.35	7009.90
567.70	6738.40
568.04	4664.69
568.39	4105.30
568.73	7995.27
569.08	6312.42
569.42	5591.54
569.77	6644.78
570.11	8318.26
570.46	6249.23
570.80	5533.03
571.15	9968.34
571.49	4887.04
571.84	4912.78
572.18	10888.17
572.52	8035.06
572.87	3960.19
573.21	7045.01
573.56	5406.64
573.90	4748.95
574.25	6731.38
574.59	3953.16
574.94	10843.70
575.28	8638.92
575.62	5408.98
575.97	4259.78
576.31	4940.87
576.66	4910.44
577.00	5036.83
577.34	5893.47
577.69	4084.23
578.03	7613.76
578.38	4807.46
578.72	5462.81
579.06	6593.29
579.41	5217.05
579.75	5795.17
580.09	5933.26
580.44	7098.84
580.78	7293.11
581.12	4351.06
581.47	4978.32
581.81	4072.53
582.16	3733.15
582.50	6642.44
582.84	4662.35
583.19	6373.28
583.53	9825.57
583.87	5867.72
584.21	5514.30
584.56	4016.36
584.90	4697.46
585.24	8077.19
585.59	4748.95
585.93	6054.97
586.27	8975.95
586.62	3559.95
586.96	7665.25
587.30	10888.17
587.64	3597.40
587.99	5385.57
588.33	4678.73
588.67	8266.77
589.01	6473.92
589.36	4985.34
589.70	9366.82
590.04	4589.79
590.38	3894.65
590.73	6499.67
591.07	3679.32
591.41	4580.43
591.75	8163.79
592.09	5785.80
592.44	5930.92
592.78	5753.04
593.12	9158.52
593.46	6899.90
593.80	4657.67
594.15	3541.23
594.49	6757.13
594.83	9760.03
595.17	5324.72
595.51	3527.19
595.85	8336.99
596.20	4947.89
596.54	4112.32
596.88	3089.51
597.22	3637.19
597.56	9898.13
597.90	4124.02
598.25	7597.38
598.59	3840.82
598.93	5783.46
599.27	5923.90
599.61	9226.39
599.95	6249.23
600.29	8571.04
600.63	7674.62
600.97	4315.95
601.32	5949.64
601.66	4184.88
602.00	3435.91
602.34	4259.78
602.68	7606.74
603.02	5523.66
603.36	4660.01
603.70	3243.98
604.04	6221.14
604.38	4477.44
604.72	11524.80
605.06	6193.06
605.40	7162.04
605.74	7337.58
606.08	6160.29
606.43	4835.55
606.77	5797.51
607.11	6352.21
607.45	4065.51
607.79	6277.32
608.13	5664.10
608.47	6427.11
608.81	5607.92
609.15	5556.43
609.49	7169.06
609.83	8856.59
610.17	7908.67
610.51	5879.43
610.85	9970.68
611.19	4292.54
611.52	6799.26
611.86	4606.17
612.20	5132.79
612.54	6352.21
612.88	3463.99
613.22	7550.57
613.56	4180.20
613.90	6157.95
614.24	9050.85
614.58	6326.47
614.92	5249.82
615.26	3115.25
615.60	10368.57
615.94	5631.33
616.28	6874.15
616.61	5184.29
616.95	3440.59
617.29	6462.22
617.63	7871.22
617.97	6672.87
618.31	3574.00
618.65	4821.50
618.99	8154.43
619.33	5013.43
619.66	6354.55
620.00	6885.86
620.34	4147.43
620.68	6429.45
621.02	6871.81
621.36	4837.89
621.69	7110.55
622.03	4117.00
622.37	3639.53
622.71	5259.18
623.05	6745.42
623.39	7744.83
623.72	6300.72
624.06	3751.88
624.40	7148.00
624.74	8903.40
625.08	6878.83
625.41	4131.05
625.75	4376.80
626.09	4014.02
626.43	5282.59
626.77	6090.07
627.10	5041.51
627.44	9441.72
627.78	4166.15
628.12	7943.78
628.45	5483.88
628.79	3557.61
629.13	3964.87
629.47	7199.49
629.80	6410.73
630.14	6534.78
630.48	11318.83
630.81	4751.29
631.15	6157.95
631.49	5158.54
631.83	4505.53
632.16	2331.17
632.50	3281.43
632.84	4044.45
633.17	5790.49
633.51	3124.62
633.85	6174.33
634.18	11052.01
634.52	11391.39
634.86	4079.55
635.19	4060.83
635.53	8311.24
635.87	6834.36
636.20	3421.86
636.54	3501.44
636.88	2752.47
637.21	5628.99
637.55	5584.52
637.89	3187.81
638.22	7702.70
638.56	7014.59
638.89	8006.97
639.23	5469.83
639.57	4198.92
639.90	3143.34
640.24	2888.22
640.57	6516.05
640.91	5249.82
641.25	4596.81
641.58	3602.08
641.92	3744.86
642.25	3045.04
642.59	4905.76
642.92	5095.35
643.26	4135.73
643.60	5439.40
643.93	7494.40
644.27	3534.21
644.60	5483.88
644.94	4500.85
645.27	4961.94
645.61	7508.44
645.94	8156.77
646.28	6263.27
646.61	2661.19
646.95	3735.50
647.28	6153.27
647.62	6637.76
647.95	6665.85
648.29	7726.11
648.62	6864.79
648.96	6415.41
649.29	3047.38
649.63	4641.28
649.96	5198.33
650.30	4374.46
650.63	6387.32
650.97	11185.42
651.30	4135.73
651.63	7410.14
651.97	65535.00
652.30	9423.00
652.64	2956.10
652.97	9291.93
653.31	3510.80
653.64	2778.22
653.97	5130.45
654.31	11295.43
654.64	5481.53
654.98	2743.11
655.31	2754.81
655.64	6541.80
655.98	4212.96
656.31	3075.46
656.65	8840.20
656.98	6415.41
657.31	6473.92
657.65	12243.34
657.98	4999.38
658.31	10504.32
658.65	3356.33
658.98	6757.13
659.31	6906.92
659.65	5006.41
659.98	6490.31
660.31	10214.10
660.65	6272.64
660.98	6588.61
661.31	5015.77
661.65	5867.72
661.98	7520.14
662.31	6864.79
662.65	8734.88
662.98	5439.40
663.31	6974.80
663.65	5626.65
663.98	3414.84
664.31	5975.39
664.64	6471.58
664.98	3574.00
665.31	3847.84
665.64	3503.78
665.97	5423.02
666.31	3899.33
666.64	4620.22
666.97	3904.01
667.30	3110.57
667.64	2499.69
667.97	5839.64
668.30	5305.99
668.63	6757.13
668.96	7592.70
669.30	3805.71
669.63	7435.88
669.96	5944.96
670.29	4561.70
670.62	6223.48
670.96	7489.71
671.29	3307.18
671.62	2803.96
671.95	9919.19
672.28	6920.96
672.62	3141.00
672.95	6448.18
673.28	7070.76
673.61	5783.46
673.94	5331.74
674.27	7595.04
674.60	4765.33
674.94	5144.50
675.27	6487.96
675.60	11962.48
675.93	4351.06
676.26	3758.90
676.59	6171.99
676.92	6225.82
677.25	6230.51
677.58	6785.21
677.92	6729.04
678.25	5528.35
678.58	6176.67
678.91	8531.25
679.24	6738.40
679.57	3592.72
679.90	5624.31
680.23	7562.27
680.56	7246.30
680.89	5811.55
681.22	6883.52
681.55	6413.07
681.88	5207.69
682.21	2993.55
682.54	9415.98
682.87	7311.83
683.20	9884.08
683.53	5633.67
683.86	4840.23
684.19	4105.30
684.52	6946.71
684.85	3124.62
685.18	5933.26
685.51	6759.47
685.84	2710.34
686.17	4706.82
686.50	3358.67
686.83	4664.69
687.16	3386.76
687.49	3112.91
687.82	5921.56
688.15	5961.34
688.48	5420.68
688.81	8362.73
689.14	5495.58
689.47	6094.76
689.80	5825.59
690.13	9467.47
690.46	5418.34
690.79	9039.15
691.11	4915.12
691.44	5394.93
691.77	8987.66
692.10	13076.57
692.43	11473.31
692.76	6726.70
693.09	2616.72
693.42	3330.58
693.75	3922.74
694.07	11578.63
694.40	7293.11
694.73	6544.14
695.06	8477.42
695.39	5518.98
695.72	3669.96
696.05	7639.51
696.37	3665.28
696.70	7412.48
697.03	6562.86
697.36	9657.05
697.69	4662.35
698.01	6579.25
698.34	3377.39
698.67	4770.01
699.00	3609.11
699.33	3927.42
699.65	6389.66
699.98	6047.94
700.31	9823.23
700.64	4318.29
700.97	3590.38
701.29	6736.06
701.62	4234.03
701.95	2782.90
702.28	3564.64
702.60	3843.16
702.93	5345.78
703.26	11243.93
703.59	5404.30
703.91	4940.87
704.24	4849.59
704.57	5486.22
704.89	13530.64
705.22	4690.43
705.55	5390.25
705.88	2958.44
706.20	4212.96
706.53	6174.33
706.86	4117.00
707.18	2775.88
707.51	4390.84
707.84	3634.85
708.16	8046.76
708.49	5933.26
708.82	4212.96
709.14	7463.97
709.47	3363.35
709.80	11707.36
710.12	8379.12
710.45	3932.10
710.78	7300.13
711.10	3557.61
711.43	22923.21
711.75	3562.30
712.08	3620.81
712.41	5413.66
712.73	4901.08
713.06	5975.39
713.38	3904.01
713.71	2347.56
714.04	5685.16
714.36	5715.59
714.69	2944.39
715.01	8386.14
715.34	3023.97
715.67	2597.99
715.99	7948.46
716.32	6799.26
716.64	3166.74
716.97	5357.49
717.29	5760.06
717.62	4652.98
717.94	7063.74
718.27	10244.52
718.59	5572.82
718.92	2595.65
719.24	3653.58
719.57	5128.11
719.89	2712.68
720.22	4940.87
720.54	4858.95
720.87	3384.41
721.19	6789.89
721.52	4559.36
721.84	2551.18
722.17	4194.24
722.49	3449.95
722.82	5233.44
723.14	5895.81
723.47	7077.78
723.79	3606.77
724.12	2380.32
724.44	3768.26
724.76	4664.69
725.09	4545.32
725.41	4383.82
725.74	5130.45
726.06	4788.74
726.39	5858.36
726.71	6630.74
727.03	5055.56
727.36	6785.21
727.68	5217.05
728.01	7389.07
728.33	4821.50
728.65	6462.22
728.98	5226.42
729.30	5137.48
729.62	5481.53
729.95	6782.87
730.27	7014.59
730.59	7169.06
730.92	6340.51
731.24	4217.65
731.56	4283.18
731.89	5004.07
732.21	9327.03
732.53	3728.47
732.86	3028.65
733.18	2750.13
733.50	7115.23
733.83	7667.60
734.15	3915.72
734.47	4451.70
734.80	12336.96
735.12	6211.78
735.44	4589.79
735.76	4250.41
736.09	7688.66
736.41	6951.39
736.73	8526.57
737.05	6427.11
737.38	2502.03
737.70	5046.20
738.02	2370.96
738.34	3943.80
738.67	5987.09
738.99	3651.24
739.31	5315.36
739.63	4716.18
739.96	4231.69
740.28	6270.30
740.60	4959.60
740.92	6022.20
741.24	5144.50
741.57	5528.35
741.89	6743.08
742.21	6576.91
742.53	8568.70
742.85	6780.53
743.17	4170.83
743.50	5315.36
743.82	5558.77
744.14	2946.73
744.46	5416.00
744.78	3831.46
745.10	6637.76
745.42	5322.38
745.75	4950.23
746.07	4138.07
746.39	4500.85
746.71	3967.21
747.03	3878.27
747.35	7075.44
747.67	5530.69
747.99	6925.65
748.31	6539.46
748.64	6874.15
748.96	10511.35
749.28	5460.47
749.60	4643.62
749.92	4887.04
750.24	6944.37
750.56	5886.45
750.88	7339.92
751.20	5530.69
751.52	5654.73
751.84	3894.65
752.16	2726.72
752.48	4355.74
752.80	11377.34
753.12	4542.98
753.44	3852.52
753.76	6054.97
754.08	5095.35
754.40	6724.36
754.72	3686.34
755.04	4381.48
755.36	7377.37
755.68	6951.39
756.00	4510.21
756.32	3150.36
756.64	5156.20
756.96	9188.94
757.28	5743.67
757.60	8095.91
757.92	8147.40
758.24	4107.64
758.56	5579.84
758.88	3990.61
759.20	5387.91
759.52	6890.54
759.84	5317.70
760.15	2558.21
760.47	3974.23
760.79	2642.46
761.11	4128.70
761.43	5774.10
761.75	5247.48
762.07	7342.26
762.39	3786.99
762.71	3300.16
763.02	5542.39
763.34	3016.95
763.66	5137.48
763.98	3080.14
764.30	6403.71
764.62	7143.32
764.94	8355.71
765.25	4613.20
765.57	5607.92
765.89	7995.27
766.21	4912.78
766.53	5067.26
766.85	5636.01
767.16	9958.98
767.48	5509.62
767.80	7969.52
768.12	3421.86
768.44	2780.56
768.75	3981.25
769.07	5551.75
769.39	7267.36
769.71	6143.91
770.02	6090.07
770.34	7943.78
770.66	8561.68
770.98	5029.81
771.29	5362.17
771.61	2810.98
771.93	7688.66
772.25	5270.89
772.56	7148.00
772.88	7854.84
773.20	4393.19
773.52	8365.07
773.83	6448.18
774.15	7517.80
774.47	5055.56
774.78	5631.33
775.10	5275.57
775.42	12821.45
775.73	11728.42
776.05	5640.69
776.37	3297.81
776.68	4334.67
777.00	8133.36
777.32	4109.98
777.63	3665.28
777.95	2455.22
778.27	5575.16
778.58	7391.41
778.90	8308.90
779.22	4053.81
779.53	3953.16
779.85	10333.47
780.16	12676.34
780.48	4711.50
780.80	5867.72
781.11	7936.76
781.43	5940.28
781.74	4451.70
782.06	3473.36
782.38	2380.32
782.69	8524.23
783.01	4655.33
783.32	11653.53
783.64	5678.14
783.95	5465.15
784.27	6520.73
784.58	4767.67
784.90	6228.17
785.22	7529.50
785.53	4035.08
785.85	4447.02
786.16	7007.56
786.48	4393.19
786.79	7829.09
787.11	3438.25
787.42	4919.81
787.74	2986.52
788.05	5961.34
788.37	5619.63
788.68	2836.73
789.00	8226.98
789.31	3281.43
789.62	3630.17
789.94	5078.96
790.25	3817.41
790.57	4723.20
790.88	4664.69
791.20	5420.68
791.51	4880.02
791.83	5863.04
792.14	5088.32
792.45	3658.26
792.77	4849.59
793.08	4873.00
793.40	6293.70
793.71	3836.14
794.02	5619.63
794.34	3627.83
794.65	7754.19
794.97	8458.70
795.28	4936.19
795.59	3634.85
795.91	5245.14
796.22	5561.11
796.53	9476.83
796.85	5867.72
797.16	4905.76
797.48	3267.39
797.79	6469.24
798.10	2614.38
798.42	13132.75
798.73	6125.18
799.04	3030.99
799.36	2457.56
799.67	11000.52
799.98	3435.91
800.29	3754.22
800.61	8465.72
800.92	2883.54
801.23	4772.35
801.55	5376.21
801.86	12971.25
802.17	3742.52
802.48	3471.01
802.80	5673.46
803.11	6282.00
803.42	6586.27
803.73	3103.55
804.05	7281.41
804.36	2808.64
804.67	4685.75
804.98	3185.47
805.30	5137.48
805.61	4985.34
805.92	2569.91
806.23	3016.95
806.54	7463.97
806.86	3824.44
807.17	4685.75
807.48	5767.08
807.79	9919.19
808.10	6647.12
808.41	7845.48
808.73	3831.46
809.04	5172.58
809.35	6494.99
809.66	4524.26
809.97	3503.78
810.28	6972.46
810.60	3541.23
810.91	6565.20
811.22	12978.27
811.53	6754.79
811.84	3850.18
812.15	7854.84
812.46	3035.67
812.77	4683.41
813.08	6792.23
813.40	9523.64
813.71	5837.30
814.02	3262.71
814.33	4486.81
814.64	4875.34
814.95	4645.96
815.26	6595.63
815.57	8325.29
815.88	4121.68
816.19	6612.01
816.50	5284.93
816.81	5263.86
817.12	6310.08
817.43	4760.65
817.74	3843.16
818.05	5350.46
818.36	6349.87
818.67	5298.97
818.98	4348.72
819.29	2747.79
819.60	6649.46
819.91	4519.57
820.22	8748.92
820.53	4023.38
820.84	3749.54
821.15	3033.33
821.46	5783.46
821.77	6401.37
822.08	4891.72
822.39	3531.87
822.70	5008.75
823.01	6846.07
823.32	3166.74
823.63	7885.26
823.94	3251.00
824.25	10171.97
824.56	6253.91
824.87	9706.20
825.17	4615.54
825.48	4624.90
825.79	6843.73
826.10	4447.02
826.41	6548.82
826.72	5027.47
827.03	6939.69
827.34	4215.30
827.65	5425.36
827.95	6321.79
828.26	6693.93
828.57	3861.88
828.88	3728.47
829.19	2373.30
829.50	10483.26
829.80	3377.39
830.11	3185.47
830.42	8444.65
830.73	3971.89
831.04	4873.00
831.35	7248.64
831.65	5074.28
831.96	6122.84
832.27	4636.60
832.58	4681.07
832.88	6120.50
833.19	6731.38
833.50	7281.41
833.81	9359.80
834.12	8304.22
834.42	6274.98
834.73	6015.18
835.04	5966.03
835.35	7744.83
835.65	3417.18
835.96	7136.29
836.27	3625.49
836.57	3784.65
836.88	10033.88
837.19	6698.61
837.50	5416.00
837.80	7377.37
838.11	5624.31
838.42	3370.37
838.72	2899.92
839.03	6827.34
839.34	3873.59
839.64	4145.09
839.95	4170.83
840.26	5535.37
840.56	4971.30
840.87	9621.94
841.18	5980.07
841.48	4697.46
841.79	7110.55
842.10	6544.14
842.40	2935.03
842.71	2705.66
843.01	5734.31
843.32	5125.77
843.63	3349.31
843.93	5268.55
844.24	5298.97
844.54	3391.44
844.85	4472.76
845.16	3471.01
845.46	2633.10
845.77	7080.12
846.07	7637.17
846.38	4290.20
846.68	3155.04
846.99	2551.18
847.29	4835.55
847.60	3562.30
847.91	5528.35
848.21	6370.94
848.52	5224.08
848.82	5404.30
849.13	3295.47
849.43	5891.13
849.74	10012.81
850.04	9041.49
850.35	6539.46
850.65	7098.84
850.96	7131.61
851.26	3119.93
851.57	5933.26
851.87	4596.81
852.17	5413.66
852.48	6586.27
852.78	5968.37
853.09	6951.39
853.39	4844.91
853.70	3007.59
854.00	3508.46
854.31	3737.84
854.61	3646.55
854.91	3997.64
855.22	2909.29
855.52	4945.55
855.83	3967.21
856.13	2869.50
856.43	4917.47
856.74	5781.12
857.04	5280.25
857.35	6944.37
857.65	5916.87
857.95	7000.54
858.26	3103.55
858.56	36989.83
858.86	12781.67
859.17	5652.39
859.47	2396.71
859.77	3974.23
860.08	7674.62
860.38	7665.25
860.68	3609.11
860.99	8367.42
861.29	10029.20
861.59	3658.26
861.90	5404.30
862.20	5404.30
862.50	4704.48
862.80	4587.45
863.11	8004.63
863.41	6370.94
863.71	4149.77
864.02	7026.29
864.32	4767.67
864.62	3442.93
864.92	3442.93
865.23	5834.96
865.53	12067.80
865.83	9125.75
866.13	6684.57
866.43	6614.35
866.74	5001.72
867.04	5853.68
867.34	18136.81
867.64	4035.08
867.95	6581.59
868.25	8884.67
868.55	7880.58
868.85	4252.75
869.15	3786.99
869.45	5322.38
869.76	4716.18
870.06	6712.66
870.36	6118.16
870.66	4227.01
870.96	5881.77
871.26	4706.82
871.56	5434.72
871.87	2836.73
872.17	12734.85
872.47	6246.89
872.77	5039.17
873.07	5289.61
873.37	3332.92
873.67	5879.43
873.97	5093.01
874.27	12107.59
874.58	3260.37
874.88	9036.81
875.18	3012.27
875.48	6970.12
875.78	7744.83
876.08	4816.82
876.38	6679.89
876.68	5975.39
876.98	4285.52
877.28	6518.39
877.58	4809.80
877.88	3337.60
878.18	5149.18
878.48	7510.78
878.78	6298.38
879.08	10403.68
879.38	5970.71
879.68	4404.89
879.98	3258.03
880.28	11133.93
880.58	2881.20
880.88	4486.81
881.18	6541.80
881.48	5200.67
881.78	4997.04
882.08	2977.16
882.38	4521.92
882.68	3428.88
882.98	3709.75
883.28	4812.14
883.58	3063.76
883.88	6045.60
884.18	5474.51
>>>>>End Processed Spectral Data<<<<<
